Blocks,Trials,answer,RT,Cue,cor_answer,stim_left,stim_right
1,1,9,3.3021724874438405,False,9,['9' '9' '' '9' '' '9' '9' '' ''],['8' '' '' '8' '' '8' '8' '' '']
1,2,9,0.714474720452472,True,9,['8' '' '' '8' '' '8' '8' '' ''],['1' '' '' '1' '' '1' '1' '' '1']
1,3,0,3.3495699152088036,False,0,['1' '' '' '1' '' '1' '1' '' '1'],['9' '' '' '9' '' '' '9' '9' '9']
1,4,3,2.8135478241417786,True,3,['9' '' '' '9' '' '' '9' '9' '9'],['' '' '' '4' '' '' '' '' '']
1,5,9,0.8995643993368958,True,9,['' '' '' '4' '' '' '' '' ''],['5' '' '' '5' '5' '5' '' '5' '5']
1,6,9,1.8553136998937134,False,9,['5' '' '' '5' '5' '5' '' '5' '5'],['' '' '1' '' '1' '' '' '1' '']
1,7,6,1.355589110443134,True,6,['' '' '1' '' '1' '' '' '1' ''],['5' '5' '5' '5' '5' '5' '5' '5' '5']
1,8,0,1.468713131758932,True,0,['5' '5' '5' '5' '5' '5' '5' '5' '5'],['' '5' '5' '5' '' '5' '5' '5' '5']
1,9,9,2.098020108417586,False,9,['' '5' '5' '5' '' '5' '5' '5' '5'],['5' '5' '' '' '' '' '' '' '']
1,10,6,2.909632780826769,False,7,['5' '5' '' '' '' '' '' '' ''],['' '1' '' '' '1' '1' '1' '' '1']
1,11,5,1.358681829185798,True,5,['' '1' '' '' '1' '1' '1' '' '1'],['4' '4' '' '4' '4' '4' '4' '4' '4']
1,12,8,1.0564239223365348,True,8,['4' '4' '' '4' '4' '4' '4' '4' '4'],['4' '4' '' '4' '4' '4' '4' '4' '4']
1,13,3,2.3504501564361817,False,3,['4' '4' '' '4' '4' '4' '4' '4' '4'],['5' '5' '5' '5' '' '' '' '5' '']
2,1,3,2.1429553122443394,False,3,['7' '7' '7' '7' '7' '7' '7' '7' '7'],['' '4' '' '4' '4' '' '' '4' '']
2,2,5,1.5124183727564287,True,5,['' '4' '' '4' '4' '' '' '4' ''],['' '' '' '' '' '' '' '' '1']
2,3,3,0.9178709653695023,False,3,['' '' '' '' '' '' '' '' '1'],['' '' '' '' '' '' '6' '6' '']
2,4,0,1.2968642268126587,False,0,['' '' '' '' '' '' '6' '6' ''],['1' '1' '1' '1' '1' '1' '' '1' '1']
2,5,7,2.4437890516071548,False,7,['1' '1' '1' '1' '1' '1' '' '1' '1'],['3' '3' '3' '3' '3' '3' '3' '3' '3']
2,6,7,0.850375462337297,True,7,['3' '3' '3' '3' '3' '3' '3' '3' '3'],['' '' '' '' '' '4' '4' '' '']
2,7,3,1.2407628297648898,False,3,['' '' '' '' '' '4' '4' '' ''],['' '2' '' '' '' '' '' '' '']
2,8,3,0.6397821537027539,True,3,['' '2' '' '' '' '' '' '' ''],['' '' '1' '' '1' '' '1' '1' '']
2,9,3,0.9043023034894304,True,3,['' '' '1' '' '1' '' '1' '1' ''],['' '2' '' '2' '' '2' '2' '2' '2']
2,10,3,4.020588374993395,False,2,['' '2' '' '2' '' '2' '2' '2' '2'],['7' '7' '' '' '' '7' '7' '7' '7']
2,11,9,1.5997078120069546,True,9,['7' '7' '' '' '' '7' '7' '7' '7'],['2' '2' '' '' '2' '2' '2' '' '']
2,12,9,2.5752985465676375,False,9,['2' '2' '' '' '2' '2' '2' '' ''],['' '' '' '' '7' '7' '' '7' '7']
2,13,9,1.70268416117392,False,9,['' '' '' '' '7' '7' '' '7' '7'],['' '' '5' '5' '5' '' '5' '' '5']
2,14,7,1.3053985064245808,True,7,['' '' '5' '5' '5' '' '5' '' '5'],['2' '2' '' '' '2' '' '2' '2' '2']
3,1,1,1.7307492239474414,True,1,['' '' '' '' '' '' '2' '2' ''],['9' '9' '' '9' '9' '' '9' '' '']
3,2,4,2.3092389322496274,False,3,['9' '9' '' '9' '9' '' '9' '' ''],['7' '7' '7' '' '7' '7' '7' '7' '7']
3,3,2,2.8711840891610336,False,2,['7' '7' '7' '' '7' '7' '7' '7' '7'],['1' '1' '1' '' '' '' '' '' '1']
3,4,0,2.6350362055704863,False,0,['1' '1' '1' '' '' '' '' '' '1'],['4' '' '4' '' '4' '4' '' '4' '4']
3,5,2,3.208662753462022,False,2,['4' '' '4' '' '4' '4' '' '4' '4'],['' '2' '2' '2' '2' '' '' '2' '2']
3,6,9,0.9174515292754677,True,9,['' '2' '2' '2' '2' '' '' '2' '2'],['7' '' '7' '' '7' '7' '7' '7' '7']
3,7,8,2.120886844951883,False,8,['7' '' '7' '' '7' '7' '7' '7' '7'],['' '' '8' '' '' '' '' '' '']
3,8,0,0.8032997937677919,True,0,['' '' '8' '' '' '' '' '' ''],['' '' '' '' '2' '2' '' '' '']
3,9,3,2.196132914127247,False,3,['' '' '' '' '2' '2' '' '' ''],['' '' '' '' '' '' '7' '' '']
3,10,2,0.8755680581987235,True,2,['' '' '' '' '' '' '7' '' ''],['' '' '5' '' '' '5' '5' '5' '']
3,11,0,1.2963712457597012,True,0,['' '' '5' '' '' '5' '5' '5' ''],['5' '5' '5' '5' '' '5' '5' '5' '5']
3,12,7,1.7974514373443071,True,7,['5' '5' '5' '5' '' '5' '5' '5' '5'],['' '' '2' '2' '2' '' '' '2' '2']
3,13,8,1.6853218051610384,False,8,['' '' '2' '2' '2' '' '' '2' '2'],['' '' '3' '' '' '3' '' '3' '']
3,14,1,2.456564806898541,False,1,['' '' '3' '' '' '3' '' '3' ''],['6' '' '6' '6' '6' '6' '6' '6' '6']
4,1,2,1.70976401261305,True,2,['8' '8' '' '' '' '' '8' '8' '8'],['' '' '4' '' '' '4' '4' '' '']
4,2,2,2.257735244276546,False,2,['' '' '4' '' '' '4' '4' '' ''],['2' '2' '2' '2' '2' '2' '2' '2' '2']
4,3,7,2.2135799234520164,False,7,['2' '2' '2' '2' '2' '2' '2' '2' '2'],['2' '' '2' '2' '2' '2' '2' '2' '2']
4,4,8,1.9976875473062137,True,8,['2' '' '2' '2' '2' '2' '2' '2' '2'],['6' '' '' '' '' '' '6' '' '']
4,5,7,5.5253963766849665,True,7,['6' '' '' '' '' '' '6' '' ''],['1' '' '1' '' '' '1' '1' '' '1']
4,6,9,2.14805213111822,False,9,['1' '' '1' '' '' '1' '1' '' '1'],['9' '' '9' '' '9' '' '' '9' '']
4,7,0,1.5161408202102393,True,0,['9' '' '9' '' '9' '' '' '9' ''],['' '1' '1' '1' '' '1' '1' '' '1']
4,8,8,1.103010057272968,True,8,['' '1' '1' '1' '' '1' '1' '' '1'],['' '' '' '' '7' '' '' '' '']
4,9,3,1.394881653903667,False,3,['' '' '' '' '7' '' '' '' ''],['1' '1' '' '' '' '' '' '' '']
4,10,3,0.8518724086893599,False,3,['1' '1' '' '' '' '' '' '' ''],['' '' '' '' '7' '' '' '' '']
4,11,9,1.0734572412670786,False,9,['' '' '' '' '7' '' '' '' ''],['9' '' '9' '9' '9' '9' '9' '9' '9']
4,12,3,2.7503527859753376,False,3,['9' '' '9' '9' '9' '9' '9' '9' '9'],['7' '' '' '' '7' '7' '' '7' '7']
4,13,9,2.9102307166649553,False,9,['7' '' '' '' '7' '7' '' '7' '7'],['' '' '2' '2' '2' '' '' '2' '']
5,1,1,1.8429489536697474,True,1,['' '7' '' '7' '7' '' '' '' ''],['4' '' '' '' '' '' '' '' '']
5,2,5,3.6246774747110067,False,5,['4' '' '' '' '' '' '' '' ''],['' '' '3' '3' '' '3' '' '3' '']
5,3,4,1.4210222902511305,True,4,['' '' '3' '3' '' '3' '' '3' ''],['' '1' '' '' '' '' '' '' '']
5,4,7,1.8127786664463201,False,7,['' '1' '' '' '' '' '' '' ''],['4' '' '4' '4' '' '4' '4' '4' '']
5,5,2,3.419000186926951,False,2,['4' '' '4' '4' '' '4' '4' '4' ''],['' '' '' '5' '5' '5' '5' '5' '5']
5,6,4,0.9836442906130287,True,4,['' '' '' '5' '5' '5' '5' '5' '5'],['9' '' '' '9' '' '' '9' '9' '9']
5,7,2,0.976407390042823,True,2,['9' '' '' '9' '' '' '9' '9' '9'],['' '' '' '3' '' '' '' '' '']
5,8,4,4.0259334081038105,False,4,['' '' '' '3' '' '' '' '' ''],['6' '' '' '' '' '6' '' '' '6']
5,9,7,4.66213369247771,False,7,['6' '' '' '' '' '6' '' '' '6'],['' '' '8' '' '8' '8' '8' '' '']
5,10,7,1.5195066512219455,True,7,['' '' '8' '' '8' '8' '8' '' ''],['' '9' '9' '9' '9' '9' '' '' '']
5,11,7,1.9463278848779737,False,7,['' '9' '9' '9' '9' '9' '' '' ''],['' '' '' '' '4' '' '' '' '4']
5,12,2,0.7641627672519462,False,5,['' '' '' '' '4' '' '' '' '4'],['8' '' '8' '' '' '' '' '' '8']
5,13,1,0.7177099325531344,True,1,['8' '' '8' '' '' '' '' '' '8'],['3' '3' '3' '3' '3' '3' '3' '3' '3']
6,1,0,2.835912003456542,False,0,['' '3' '3' '' '' '' '' '' ''],['2' '2' '2' '2' '2' '2' '2' '' '2']
6,2,7,1.8321091162038101,False,7,['2' '2' '2' '2' '2' '2' '2' '' '2'],['2' '2' '2' '2' '2' '2' '2' '2' '2']
6,3,3,1.1179561549470236,True,3,['2' '2' '2' '2' '2' '2' '2' '2' '2'],['1' '' '1' '1' '' '1' '1' '1' '1']
6,4,8,2.6015540969137874,True,8,['1' '' '1' '1' '' '1' '1' '1' '1'],['' '' '' '' '7' '' '' '' '']
6,5,4,3.8819224192616275,False,4,['' '' '' '' '7' '' '' '' ''],['' '' '4' '' '' '' '' '4' '4']
6,6,4,1.06133994318634,False,4,['' '' '4' '' '' '' '' '4' '4'],['' '' '' '' '' '' '4' '' '']
6,7,7,2.0912375011876065,False,7,['' '' '' '' '' '' '4' '' ''],['9' '9' '' '9' '' '9' '' '9' '9']
6,8,0,0.7107610830721569,True,0,['9' '9' '' '9' '' '9' '' '9' '9'],['1' '' '' '' '' '' '' '' '']
6,9,9,7.00328347597997,False,5,['1' '' '' '' '' '' '' '' ''],['8' '' '8' '' '' '' '8' '' '8']
6,10,0,1.5002869019494938,True,0,['8' '' '8' '' '' '' '8' '' '8'],['2' '2' '2' '2' '2' '2' '2' '2' '2']
6,11,0,1.048405223530608,False,0,['2' '2' '2' '2' '2' '2' '2' '2' '2'],['' '' '' '8' '' '' '' '' '']
6,12,3,0.7584611176994258,True,3,['' '' '' '8' '' '' '' '' ''],['' '5' '' '5' '5' '5' '' '5' '5']
6,13,3,0.7215143519924823,True,3,['' '5' '' '5' '5' '5' '' '5' '5'],['' '8' '' '' '' '' '' '' '']
7,1,7,1.7582243948627365,True,7,['' '2' '2' '2' '2' '2' '2' '' '2'],['5' '' '' '5' '' '' '5' '5' '']
7,2,0,2.6708564310470138,False,0,['5' '' '' '5' '' '' '5' '5' ''],['3' '' '3' '' '' '3' '3' '3' '3']
7,3,8,2.6903113709699937,False,8,['3' '' '3' '' '' '3' '3' '3' '3'],['' '3' '' '' '' '' '3' '' '']
7,4,2,0.917032476228087,True,2,['' '3' '' '' '' '' '3' '' ''],['9' '' '9' '9' '9' '9' '9' '' '']
7,5,1,1.504533357235232,True,1,['9' '' '9' '9' '9' '9' '9' '' ''],['' '2' '2' '2' '2' '' '2' '' '']
7,6,4,2.3314406997801598,False,4,['' '2' '2' '2' '2' '' '2' '' ''],['9' '9' '9' '9' '9' '9' '9' '9' '9']
7,7,2,0.7718872862214994,True,2,['9' '9' '9' '9' '9' '9' '9' '9' '9'],['3' '3' '' '3' '3' '3' '' '3' '']
7,8,7,2.0463969098859707,False,7,['3' '3' '' '3' '3' '3' '' '3' ''],['' '' '' '3' '' '' '' '' '']
7,9,2,1.5958976468677974,True,1,['' '' '' '3' '' '' '' '' ''],['' '' '' '8' '' '8' '' '' '']
7,10,3,1.323215155777234,True,3,['' '' '' '8' '' '8' '' '' ''],['5' '5' '5' '5' '5' '5' '5' '5' '5']
7,11,1,1.1822869264642577,True,1,['5' '5' '5' '5' '5' '5' '5' '5' '5'],['' '6' '' '' '' '' '' '' '6']
7,12,0,1.438878393410505,True,0,['' '6' '' '' '' '' '' '' '6'],['' '' '4' '4' '4' '4' '4' '' '']
7,13,2,2.196418666936097,True,2,['' '' '4' '4' '4' '4' '4' '' ''],['' '' '' '' '8' '8' '' '' '8']
7,14,2,2.4757060316060233,False,2,['' '' '' '' '8' '8' '' '' '8'],['6' '6' '6' '6' '6' '6' '6' '6' '6']
8,1,3,4.410164449592685,True,3,['' '9' '9' '9' '9' '9' '9' '' '9'],['4' '4' '4' '4' '' '' '' '' '4']
8,2,8,2.1174394250010664,True,8,['4' '4' '4' '4' '' '' '' '' '4'],['4' '' '4' '' '' '4' '4' '' '4']
8,3,4,1.8629968498239577,False,4,['4' '' '4' '' '' '4' '4' '' '4'],['8' '8' '8' '8' '8' '8' '8' '8' '8']
8,4,9,1.066595726425021,True,9,['8' '8' '8' '8' '8' '8' '8' '8' '8'],['1' '' '1' '1' '1' '' '' '1' '1']
8,5,6,1.8007287845775863,True,6,['1' '' '1' '1' '1' '' '' '1' '1'],['5' '5' '' '5' '' '5' '' '5' '']
8,6,0,4.087942916854445,False,0,['5' '5' '' '5' '' '5' '' '5' ''],['' '9' '9' '9' '' '9' '' '' '9']
8,7,2,1.2481491185326377,True,2,['' '9' '9' '9' '' '9' '' '' '9'],['' '3' '3' '3' '3' '3' '' '3' '3']
8,8,8,3.2853647829965666,False,8,['' '3' '3' '3' '3' '3' '' '3' '3'],['' '' '7' '' '' '' '' '' '']
8,9,9,0.9753930824836061,True,4,['' '' '7' '' '' '' '' '' ''],['7' '7' '7' '7' '7' '7' '7' '7' '']
8,10,8,6.759480404864917,True,9,['7' '7' '7' '7' '7' '7' '7' '7' ''],['2' '2' '2' '2' '2' '2' '2' '2' '']
8,11,5,3.474005304430193,False,5,['2' '2' '2' '2' '2' '2' '2' '2' ''],['' '7' '7' '7' '7' '7' '7' '7' '']
8,12,0,1.3733172760175876,True,0,['' '7' '7' '7' '7' '7' '7' '7' ''],['3' '' '' '' '' '3' '' '' '3']
9,1,9,0.991787096536882,True,9,['' '' '' '' '' '' '1' '' '1'],['' '8' '' '8' '8' '' '' '8' '8']
9,2,7,2.296561619950353,True,7,['' '8' '' '8' '8' '' '' '8' '8'],['9' '9' '9' '' '9' '' '' '' '']
9,3,7,2.811786192546606,False,7,['9' '9' '9' '' '9' '' '' '' ''],['5' '' '' '5' '' '' '' '5' '']
9,4,2,1.809127465671736,True,2,['5' '' '' '5' '' '' '' '5' ''],['7' '7' '' '7' '7' '7' '' '7' '7']
9,5,9,1.65756126448332,True,9,['7' '7' '' '7' '7' '7' '' '7' '7'],['' '2' '2' '' '' '' '' '' '']
9,6,4,2.0404378529774476,True,4,['' '2' '2' '' '' '' '' '' ''],['2' '2' '2' '2' '2' '2' '2' '2' '2']
9,7,1,1.0691514137488412,False,1,['2' '2' '2' '2' '2' '2' '2' '2' '2'],['' '9' '9' '' '' '' '' '' '']
9,8,0,2.5857120530995417,True,0,['' '9' '9' '' '' '' '' '' ''],['1' '1' '1' '1' '1' '' '1' '1' '1']
9,9,5,1.5033627666389293,True,5,['1' '1' '1' '1' '1' '' '1' '1' '1'],['4' '4' '4' '4' '4' '4' '4' '4' '4']
9,10,8,1.5314898829715275,False,8,['4' '4' '4' '4' '4' '4' '4' '4' '4'],['4' '4' '4' '4' '4' '4' '4' '4' '4']
9,11,8,1.2129643674675208,False,8,['4' '4' '4' '4' '4' '4' '4' '4' '4'],['8' '8' '8' '8' '8' '8' '8' '8' '8']
9,12,0,1.0609542151987625,False,0,['8' '8' '8' '8' '8' '8' '8' '8' '8'],['1' '' '' '' '' '' '' '' '']
9,13,4,0.9869208717532274,False,4,['1' '' '' '' '' '' '' '' ''],['' '' '5' '5' '' '5' '' '' '']
9,14,5,1.6758375698291275,False,5,['' '' '5' '5' '' '5' '' '' ''],['' '' '2' '' '' '' '' '' '2']
9,15,8,0.905223147662582,True,8,['' '' '2' '' '' '' '' '' '2'],['6' '' '' '6' '6' '6' '6' '6' '6']
10,1,5,1.0380350012715098,True,5,['3' '3' '3' '3' '3' '' '3' '3' '3'],['2' '' '' '2' '2' '2' '2' '2' '2']
10,2,7,1.6687994704761877,True,7,['2' '' '' '2' '2' '2' '2' '2' '2'],['' '' '5' '' '' '5' '5' '' '5']
10,3,5,5.425527685080397,False,5,['' '' '5' '' '' '5' '5' '' '5'],['' '' '' '' '' '' '' '' '6']
10,4,7,2.387637475446354,False,6,['' '' '' '' '' '' '' '' '6'],['2' '' '' '' '' '2' '2' '2' '2']
10,5,1,2.8026597227967613,True,1,['2' '' '' '' '' '2' '2' '2' '2'],['' '' '9' '' '' '9' '9' '' '9']
10,6,5,2.9527117405336867,True,5,['' '' '9' '' '' '9' '9' '' '9'],['6' '' '6' '' '' '' '' '' '']
10,7,9,2.073869782521797,False,9,['6' '' '6' '' '' '' '' '' ''],['1' '1' '1' '1' '' '' '1' '1' '1']
10,8,1,3.669358335554989,False,1,['1' '1' '1' '1' '' '' '1' '1' '1'],['' '' '' '9' '9' '' '' '9' '9']
10,9,2,0.8890114638202249,True,2,['' '' '' '9' '9' '' '' '9' '9'],['3' '' '3' '3' '3' '' '3' '' '']
10,10,4,2.589915990206464,False,4,['3' '' '3' '3' '3' '' '3' '' ''],['7' '7' '7' '7' '7' '7' '7' '7' '7']
10,11,1,1.8680457878654124,True,1,['7' '7' '7' '7' '7' '7' '7' '7' '7'],['4' '4' '4' '' '4' '' '4' '4' '4']
10,12,2,1.4958439437259585,True,2,['4' '4' '4' '' '4' '' '4' '4' '4'],['' '8' '8' '8' '8' '' '8' '8' '']
10,13,0,0.6753399922163226,True,0,['' '8' '8' '8' '8' '' '8' '8' ''],['2' '2' '' '2' '2' '' '2' '2' '2']
