Blocks,Trials,answer,RT,Cue,cor_answer,stim_left,stim_right
1,1,6,2.4160384701422117,"(True, False)",6,['' '' '' '9' '' '' '' '' ''],['' '3' '' '3' '3' '3' '3' '3' '3']
1,2,8,1.1976719956119268,"(False, False)",8,['' '3' '' '3' '3' '3' '3' '3' '3'],['' '4' '' '' '' '' '' '' '']
1,3,5,1.5819520670734164,"(True, False)",5,['' '4' '' '' '' '' '' '' ''],['' '5' '' '' '' '' '' '' '']
1,4,9,0.9094328304695409,"(False, False)",9,['' '5' '' '' '' '' '' '' ''],['1' '1' '' '1' '1' '1' '1' '1' '1']
1,5,3,2.912809769834894,"(False, False)",3,['1' '1' '' '1' '1' '1' '1' '1' '1'],['3' '3' '' '' '3' '3' '' '' '3']
1,6,8,5.25931071519426,"(False, False)",8,['3' '3' '' '' '3' '3' '' '' '3'],['' '' '' '1' '' '1' '' '' '1']
1,7,4,1.0756900202554789,"(True, True)",4,['' '' '' '1' '' '1' '' '' '1'],['3' '3' '3' '3' '3' '3' '3' '3' '3']
1,8,7,1.7124472544746823,"(True, False)",7,['3' '3' '3' '3' '3' '3' '3' '3' '3'],['' '' '' '' '' '1' '1' '1' '1']
1,9,5,0.9869641560253513,"(True, True)",5,['' '' '' '' '' '1' '1' '1' '1'],['4' '4' '' '4' '4' '' '' '4' '4']
1,10,2,1.4918648550092257,"(True, True)",2,['4' '4' '' '4' '4' '' '' '4' '4'],['' '' '' '8' '' '' '' '' '']
1,11,4,3.5440201053529563,"(True, False)",4,['' '' '' '8' '' '' '' '' ''],['' '3' '3' '3' '3' '' '3' '3' '']
1,12,2,4.591334795039074,"(False, True)",2,['' '3' '3' '3' '3' '' '3' '3' ''],['6' '' '' '' '6' '' '' '6' '']
2,1,6,2.5355926957599877,"(True, True)",6,['5' '' '' '' '5' '5' '5' '5' '5'],['1' '' '1' '' '1' '1' '1' '' '']
2,2,8,6.160648620572374,"(True, False)",8,['1' '' '1' '' '1' '1' '1' '' ''],['1' '1' '' '' '1' '1' '1' '1' '1']
2,3,4,2.355773738933749,"(True, True)",4,['1' '1' '' '' '1' '1' '1' '1' '1'],['3' '3' '3' '3' '' '3' '3' '3' '3']
2,4,2,4.8515824423666345,"(False, True)",2,['3' '3' '3' '3' '' '3' '3' '3' '3'],['4' '' '' '' '' '4' '' '' '']
2,5,5,2.9253361617493283,"(False, True)",5,['4' '' '' '' '' '4' '' '' ''],['3' '' '' '' '' '' '3' '' '']
2,6,5,9.558387802569086,"(False, True)",5,['3' '' '' '' '' '' '3' '' ''],['3' '3' '3' '3' '3' '3' '3' '3' '3']
2,7,5,3.4914105616689994,"(False, False)",6,['3' '3' '3' '3' '3' '3' '3' '3' '3'],['' '2' '2' '2' '2' '' '2' '2' '2']
2,8,5,3.2169480527436463,"(False, True)",5,['' '2' '2' '2' '2' '' '2' '2' '2'],['' '' '8' '8' '8' '8' '' '8' '']
2,9,5,0.613089930163369,"(True, True)",5,['' '' '8' '8' '8' '8' '' '8' ''],['7' '7' '7' '' '' '7' '7' '7' '7']
3,1,8,2.062486018796335,"(False, False)",8,['6' '' '' '' '' '' '' '' ''],['7' '7' '' '7' '7' '7' '' '7' '7']
3,2,6,5.002801986326631,"(False, True)",6,['7' '7' '' '7' '7' '7' '' '7' '7'],['9' '9' '9' '9' '' '9' '9' '9' '9']
3,3,3,3.541259871112743,"(True, False)",3,['9' '9' '9' '9' '' '9' '9' '9' '9'],['9' '' '' '' '' '9' '9' '' '9']
3,4,6,2.1252018655904976,"(True, True)",6,['9' '' '' '' '' '9' '9' '' '9'],['7' '7' '' '' '7' '7' '' '7' '7']
3,5,3,8.175172600825135,"(True, False)",3,['7' '7' '' '' '7' '7' '' '7' '7'],['1' '' '1' '1' '' '1' '' '1' '1']
3,6,5,4.176420183800474,"(True, False)",5,['1' '' '1' '1' '' '1' '' '1' '1'],['6' '' '' '' '6' '' '' '6' '6']
3,7,7,3.7585453879646593,"(True, False)",7,['6' '' '' '' '6' '' '' '6' '6'],['' '' '' '' '' '' '' '' '2']
3,8,3,0.8781007627230792,"(False, False)",3,['' '' '' '' '' '' '' '' '2'],['' '' '1' '' '' '' '1' '' '']
3,9,4,1.5949768026939637,"(False, True)",4,['' '' '1' '' '' '' '1' '' ''],['2' '2' '2' '2' '2' '' '2' '2' '2']
3,10,8,2.6103446347424324,"(False, True)",2,['2' '2' '2' '2' '2' '' '2' '2' '2'],['' '' '4' '' '' '4' '4' '' '']
4,1,2,7.7382580876465,"(False, False)",3,['7' '' '7' '7' '7' '7' '7' '7' '7'],['1' '1' '' '' '1' '' '' '1' '1']
4,2,7,3.7096931489804774,"(False, True)",7,['1' '1' '' '' '1' '' '' '1' '1'],['2' '2' '2' '' '' '2' '' '2' '']
4,3,0,10.19054081592003,"(True, False)",3,['2' '2' '2' '' '' '2' '' '2' ''],['' '' '' '' '' '8' '' '' '']
4,4,6,3.1992309955230667,"(False, True)",6,['' '' '' '' '' '8' '' '' ''],['' '' '' '' '' '5' '5' '5' '']
4,5,7,1.148910538686323,"(True, True)",7,['' '' '' '' '' '5' '5' '5' ''],['2' '' '2' '' '2' '2' '' '2' '']
4,6,9,4.773982168411749,"(False, False)",9,['2' '' '2' '' '2' '2' '' '2' ''],['6' '' '' '' '' '6' '' '6' '6']
4,7,8,1.170225170149024,"(True, True)",8,['6' '' '' '' '' '6' '' '6' '6'],['2' '2' '2' '2' '2' '2' '2' '2' '2']
4,8,3,1.9540803662539474,"(False, True)",3,['2' '2' '2' '2' '2' '2' '2' '2' '2'],['4' '4' '4' '4' '4' '4' '' '4' '4']
4,9,8,3.2289374132396915,"(True, False)",8,['4' '4' '4' '4' '4' '4' '' '4' '4'],['9' '' '9' '' '' '' '' '9' '9']
5,1,7,3.0991857194076147,"(False, True)",7,['1' '1' '1' '1' '1' '1' '1' '1' '1'],['' '8' '8' '' '' '8' '' '' '']
5,2,9,4.164824595272876,"(False, True)",9,['' '8' '8' '' '' '8' '' '' ''],['6' '6' '6' '' '' '6' '6' '' '6']
5,3,2,8.483338619377719,"(False, True)",1,['6' '6' '6' '' '' '6' '6' '' '6'],['5' '' '' '' '5' '' '' '' '5']
5,4,7,0.6937170388346203,"(True, True)",7,['5' '' '' '' '5' '' '' '' '5'],['2' '2' '2' '2' '2' '2' '2' '2' '2']
5,5,7,1.2196278471865298,"(False, False)",7,['2' '2' '2' '2' '2' '2' '2' '2' '2'],['3' '3' '3' '3' '3' '3' '3' '' '3']
5,6,7,3.321444331062594,"(False, False)",7,['3' '3' '3' '3' '3' '3' '3' '' '3'],['2' '2' '2' '2' '2' '2' '2' '2' '2']
5,7,6,6.097415277739856,"(True, False)",6,['2' '2' '2' '2' '2' '2' '2' '2' '2'],['' '3' '' '3' '' '' '' '3' '3']
5,8,4,1.095431479081526,"(True, True)",4,['' '3' '' '3' '' '' '' '3' '3'],['1' '' '1' '1' '' '1' '1' '1' '1']
5,9,4,1.8115203581637616,"(True, False)",4,['1' '' '1' '1' '' '1' '1' '1' '1'],['8' '' '' '' '8' '8' '' '' '']
5,10,1,0.9867423720088482,"(True, True)",1,['8' '' '' '' '8' '8' '' '' ''],['3' '' '3' '3' '3' '3' '3' '3' '3']
5,11,8,2.9699948058869268,"(False, True)",9,['3' '' '3' '3' '3' '3' '3' '3' '3'],['1' '1' '1' '1' '1' '1' '1' '1' '']
6,1,0,3.7622268494260425,"(True, False)",0,['9' '9' '9' '9' '9' '9' '9' '9' '9'],['7' '' '' '' '' '' '' '' '']
6,2,7,1.992811746355983,"(False, False)",7,['7' '' '' '' '' '' '' '' ''],['8' '8' '' '' '8' '8' '' '8' '8']
6,3,5,12.631756943103937,"(False, False)",2,['8' '8' '' '' '8' '8' '' '8' '8'],['' '7' '7' '' '7' '7' '7' '' '7']
6,4,2,3.8646477809343196,"(True, False)",2,['' '7' '7' '' '7' '7' '7' '' '7'],['6' '6' '' '' '6' '' '' '6' '6']
6,5,0,6.659441640543264,"(True, False)",0,['6' '6' '' '' '6' '' '' '6' '6'],['3' '3' '' '' '' '' '' '3' '3']
6,6,5,1.067050019765702,"(True, True)",5,['3' '3' '' '' '' '' '' '3' '3'],['2' '2' '' '' '' '' '' '' '']
6,7,7,2.457574517898138,"(True, False)",7,['2' '2' '' '' '' '' '' '' ''],['' '' '8' '8' '8' '8' '8' '' '']
6,8,0,5.357561034655191,"(False, False)",0,['' '' '8' '8' '8' '8' '8' '' ''],['' '5' '5' '5' '' '5' '' '5' '']
6,9,7,1.2095081374436631,"(True, True)",7,['' '5' '5' '5' '' '5' '' '5' ''],['2' '2' '' '' '2' '' '2' '2' '2']
7,1,9,3.362250674928873,"(False, False)",9,['' '' '' '' '7' '' '7' '7' ''],['7' '7' '7' '7' '7' '' '' '' '7']
7,2,5,2.4895271212362786,"(True, True)",5,['7' '7' '7' '7' '7' '' '' '' '7'],['8' '' '' '8' '' '' '' '' '']
7,3,3,2.7732888539549094,"(True, False)",3,['8' '' '' '8' '' '' '' '' ''],['' '3' '3' '' '' '3' '3' '3' '']
7,4,0,4.707846864073872,"(False, False)",0,['' '3' '3' '' '' '3' '3' '3' ''],['' '8' '8' '8' '8' '' '' '8' '']
7,5,6,5.115840588237006,"(False, False)",6,['' '8' '8' '8' '8' '' '' '8' ''],['' '' '7' '' '' '' '' '' '']
7,6,1,2.274827935440044,"(True, True)",1,['' '' '7' '' '' '' '' '' ''],['4' '' '' '4' '' '' '4' '4' '4']
7,7,6,3.487563624050381,"(True, False)",6,['4' '' '' '4' '' '' '4' '4' '4'],['' '' '' '' '' '3' '3' '' '']
7,8,7,0.7365504656308985,"(True, True)",7,['' '' '' '' '' '3' '3' '' ''],['4' '4' '4' '4' '4' '4' '4' '4' '4']
7,9,4,2.0988172285196924,"(False, True)",4,['4' '4' '4' '4' '4' '4' '4' '4' '4'],['5' '' '' '' '' '5' '5' '' '']
7,10,8,0.6537518654367886,"(True, True)",8,['5' '' '' '' '' '5' '5' '' ''],['' '3' '3' '' '3' '3' '' '3' '']
7,11,0,5.4034871801941335,"(True, False)",0,['' '3' '3' '' '3' '3' '' '3' ''],['4' '4' '4' '4' '' '4' '4' '' '4']
8,1,8,0.7273527492025096,"(True, True)",8,['' '' '9' '' '' '9' '' '' ''],['' '9' '9' '9' '' '' '9' '9' '9']
8,2,2,3.011296812132059,"(False, True)",2,['' '9' '9' '9' '' '' '9' '9' '9'],['6' '' '6' '' '6' '6' '6' '6' '']
8,3,3,4.592061051509518,"(True, False)",3,['6' '' '6' '' '6' '6' '6' '6' ''],['4' '4' '4' '4' '4' '4' '4' '' '']
8,4,8,7.724564552555421,"(True, False)",8,['4' '4' '4' '4' '4' '4' '4' '' ''],['5' '' '5' '' '5' '' '' '' '5']
8,5,6,3.935536311290889,"(False, True)",6,['5' '' '5' '' '5' '' '' '' '5'],['2' '2' '2' '2' '2' '2' '2' '2' '2']
8,6,6,3.766628821656923,"(True, False)",6,['2' '2' '2' '2' '2' '2' '2' '2' '2'],['6' '' '6' '' '6' '' '6' '' '']
8,7,7,4.652760540678173,"(False, False)",1,['6' '' '6' '' '6' '' '6' '' ''],['1' '' '' '1' '1' '1' '1' '1' '1']
8,8,4,0.7421494586787958,"(True, True)",4,['1' '' '' '1' '1' '1' '1' '1' '1'],['3' '' '' '3' '3' '3' '3' '3' '']
8,9,8,3.5282964229572826,"(True, True)",8,['3' '' '' '3' '3' '3' '3' '3' ''],['5' '5' '' '5' '5' '5' '5' '5' '']
9,1,3,2.137768860451615,"(False, True)",3,['' '' '' '' '' '' '9' '' ''],['2' '' '' '' '2' '2' '' '2' '2']
9,2,1,4.1703833684205165,"(False, True)",1,['2' '' '' '' '2' '2' '' '2' '2'],['6' '6' '' '6' '6' '6' '6' '6' '6']
9,3,2,11.168019204427765,"(True, True)",2,['6' '6' '' '6' '6' '6' '6' '6' '6'],['' '6' '' '6' '6' '6' '' '6' '6']
9,4,4,5.910146446399267,"(True, False)",4,['' '6' '' '6' '6' '6' '' '6' '6'],['7' '7' '7' '7' '7' '7' '' '7' '7']
9,5,9,2.2530827595292067,"(True, False)",9,['7' '7' '7' '7' '7' '7' '' '7' '7'],['' '' '' '' '' '' '8' '8' '']
9,6,6,3.209095213142973,"(False, True)",6,['' '' '' '' '' '' '8' '8' ''],['4' '4' '' '4' '' '4' '4' '4' '']
9,7,5,6.318579142036469,"(False, True)",5,['4' '4' '' '4' '' '4' '4' '4' ''],['9' '' '9' '9' '9' '' '9' '9' '']
9,8,7,2.357046986036039,"(False, False)",7,['9' '' '9' '9' '9' '' '9' '9' ''],['' '2' '' '' '' '' '' '' '']
9,9,5,1.6135852094957954,"(True, True)",5,['' '2' '' '' '' '' '' '' ''],['' '' '' '3' '' '' '' '' '3']
10,1,1,4.669710355436109,"(True, False)",1,['' '5' '5' '5' '5' '5' '5' '5' '5'],['9' '9' '9' '9' '9' '' '9' '' '']
10,2,3,1.3263802703395413,"(True, True)",3,['9' '9' '9' '9' '9' '' '9' '' ''],['4' '4' '' '4' '4' '4' '4' '4' '4']
10,3,6,5.43983256264346,"(False, False)",6,['4' '4' '' '4' '4' '4' '4' '4' '4'],['5' '5' '5' '5' '5' '5' '5' '' '5']
10,4,2,2.6648184665264125,"(False, True)",2,['5' '5' '5' '5' '5' '5' '5' '' '5'],['4' '' '4' '4' '4' '4' '4' '4' '4']
10,5,0,5.708440203351529,"(True, False)",0,['4' '' '4' '4' '4' '4' '4' '4' '4'],['6' '' '6' '6' '6' '' '6' '' '6']
10,6,1,2.2992908274118236,"(True, False)",1,['6' '' '6' '6' '6' '' '6' '' '6'],['4' '' '4' '' '' '4' '4' '' '4']
10,7,6,1.7098904180111276,"(False, False)",6,['4' '' '4' '' '' '4' '4' '' '4'],['' '' '' '' '' '' '' '' '7']
10,8,1,0.891214748215134,"(True, True)",1,['' '' '' '' '' '' '' '' '7'],['' '' '' '' '4' '' '' '' '']
10,9,7,2.0081608091168164,"(False, False)",7,['' '' '' '' '4' '' '' '' ''],['6' '' '' '' '6' '6' '6' '6' '6']
10,10,2,0.8623556297134201,"(True, True)",2,['6' '' '' '' '6' '6' '6' '6' '6'],['6' '6' '6' '6' '6' '6' '6' '6' '6']
10,11,1,1.0759868814184301,"(True, False)",5,['6' '6' '6' '6' '6' '6' '6' '6' '6'],['5' '5' '5' '5' '5' '5' '5' '5' '5']
10,12,0,3.009989473877795,"(False, True)",0,['5' '5' '5' '5' '5' '5' '5' '5' '5'],['1' '' '' '1' '' '' '' '1' '1']
