Blocks,Trials,answer,RT,Cue,cor_answer,stim_left,stim_right
1,1,7,1.1007841731243388,"(True, True)",7,['3' '3' '3' '' '3' '3' '3' '' ''],['' '4' '4' '' '4' '4' '4' '' '']
1,2,3,3.3762889520148747,"(True, False)",3,['' '4' '4' '' '4' '4' '4' '' ''],['5' '5' '5' '5' '5' '5' '5' '5' '5']
1,3,4,1.0466198430431177,"(True, True)",4,['5' '5' '5' '5' '5' '5' '5' '5' '5'],['9' '9' '9' '9' '9' '' '9' '9' '9']
1,4,8,2.9239464684633276,"(True, False)",8,['9' '9' '9' '9' '9' '' '9' '9' '9'],['1' '1' '1' '1' '1' '1' '1' '1' '1']
1,5,4,2.0290464283189067,"(False, True)",4,['1' '1' '1' '1' '1' '1' '1' '1' '1'],['5' '' '5' '5' '' '5' '5' '' '5']
1,6,9,2.603365524574656,"(False, True)",9,['5' '' '5' '5' '' '5' '5' '' '5'],['' '3' '' '3' '3' '' '' '' '']
1,7,9,3.5448662554281327,"(False, True)",9,['' '3' '' '3' '3' '' '' '' ''],['6' '6' '6' '6' '6' '6' '6' '6' '6']
1,8,0,2.152007087895072,"(False, False)",0,['6' '6' '6' '6' '6' '6' '6' '6' '6'],['' '' '' '' '8' '' '' '' '']
1,9,6,2.072717195117548,"(False, False)",6,['' '' '' '' '8' '' '' '' ''],['4' '4' '' '4' '' '' '4' '' '4']
1,10,4,3.788788837100583,"(False, True)",4,['4' '4' '' '4' '' '' '4' '' '4'],['9' '9' '' '' '' '' '' '' '']
1,11,8,1.0590853305384371,"(True, True)",8,['9' '9' '' '' '' '' '' '' ''],['' '9' '' '' '9' '' '' '9' '9']
1,12,3,4.377084922976792,"(True, False)",3,['' '9' '' '' '9' '' '' '9' '9'],['' '' '' '3' '' '3' '' '3' '3']
2,1,1,3.7106454029808447,"(False, True)",1,['' '' '5' '5' '5' '' '' '5' '5'],['' '6' '' '' '6' '' '' '' '6']
2,2,5,2.1276005037834693,"(False, False)",5,['' '6' '' '' '6' '' '' '' '6'],['' '' '' '' '5' '' '' '' '5']
2,3,7,2.106151039895849,"(True, False)",7,['' '' '' '' '5' '' '' '' '5'],['' '' '' '' '' '' '9' '9' '']
2,4,7,2.7811941709487655,"(False, False)",7,['' '' '' '' '' '' '9' '9' ''],['6' '' '6' '6' '' '6' '' '6' '']
2,5,5,1.9563246366415115,"(True, True)",5,['6' '' '6' '6' '' '6' '' '6' ''],['' '' '9' '' '' '' '9' '' '9']
2,6,6,4.7807463894023385,"(True, False)",6,['' '' '9' '' '' '' '9' '' '9'],['' '7' '7' '7' '7' '7' '7' '7' '']
2,7,0,1.8087857880491356,"(True, True)",0,['' '7' '7' '7' '7' '7' '7' '7' ''],['3' '3' '3' '3' '3' '3' '3' '3' '3']
2,8,8,1.9912274653652275,"(False, True)",8,['3' '3' '3' '3' '3' '3' '3' '3' '3'],['' '9' '' '' '' '' '' '' '']
2,9,7,1.8789051607109286,"(False, True)",7,['' '9' '' '' '' '' '' '' ''],['6' '6' '6' '' '6' '6' '6' '' '6']
2,10,1,2.6592704186850824,"(False, True)",1,['6' '6' '6' '' '6' '6' '6' '' '6'],['' '4' '4' '' '' '' '' '' '']
2,11,0,1.1290350135286644,"(True, True)",0,['' '4' '4' '' '' '' '' '' ''],['' '' '' '6' '' '' '' '6' '']
2,12,3,0.9642874106348245,"(True, True)",3,['' '' '' '6' '' '' '' '6' ''],['7' '7' '' '7' '7' '7' '' '7' '7']
2,13,9,1.0537854969343243,"(True, True)",9,['7' '7' '' '7' '7' '7' '' '7' '7'],['' '' '2' '2' '2' '' '2' '2' '']
3,1,1,2.3971060058656803,"(False, True)",1,['' '' '' '' '4' '4' '4' '4' '4'],['' '' '' '6' '6' '' '' '' '']
3,2,9,2.5401988318608346,"(False, True)",9,['' '' '' '6' '6' '' '' '' ''],['7' '' '' '7' '' '' '7' '' '']
3,3,6,2.7745601858232476,"(False, True)",2,['7' '' '' '7' '' '' '7' '' ''],['' '9' '9' '' '9' '9' '9' '' '9']
3,4,7,4.085929623603079,"(False, True)",7,['' '9' '9' '' '9' '9' '9' '' '9'],['' '' '' '' '' '' '' '' '1']
3,5,0,1.3350057150555585,"(True, True)",0,['' '' '' '' '' '' '' '' '1'],['9' '9' '9' '9' '9' '9' '9' '9' '']
3,6,1,3.9128492236413877,"(False, True)",1,['9' '9' '9' '9' '9' '9' '9' '9' ''],['3' '3' '' '3' '' '3' '3' '3' '']
3,7,1,2.7206287481121763,"(False, False)",1,['3' '3' '' '3' '' '3' '3' '3' ''],['' '8' '8' '8' '8' '' '' '8' '']
3,8,0,2.641551446230551,"(True, False)",0,['' '8' '8' '8' '8' '' '' '8' ''],['' '' '4' '' '' '' '4' '' '']
3,9,7,2.726284815111285,"(False, False)",7,['' '' '4' '' '' '' '4' '' ''],['' '2' '2' '' '2' '' '2' '2' '']
3,10,7,4.911572912165866,"(False, True)",7,['' '2' '2' '' '2' '' '2' '2' ''],['' '' '2' '' '' '2' '' '' '']
3,11,4,2.5270388807684867,"(False, True)",4,['' '' '2' '' '' '2' '' '' ''],['' '' '2' '' '' '' '' '' '']
4,1,6,3.152142686413754,"(False, True)",6,['6' '6' '6' '6' '' '6' '6' '6' '6'],['' '8' '8' '8' '8' '8' '' '8' '8']
4,2,6,1.0717155280990482,"(True, True)",6,['' '8' '8' '8' '8' '8' '' '8' '8'],['8' '8' '8' '8' '8' '8' '8' '8' '8']
4,3,3,3.5730853029590435,"(True, False)",3,['8' '8' '8' '8' '8' '8' '8' '8' '8'],['4' '' '4' '4' '4' '4' '' '' '']
4,4,4,2.19486311444507,"(False, False)",4,['4' '' '4' '4' '4' '4' '' '' ''],['9' '9' '9' '9' '9' '9' '9' '9' '9']
4,5,3,4.2015043774572405,"(False, True)",3,['9' '9' '9' '9' '9' '9' '9' '9' '9'],['4' '4' '' '' '' '' '4' '4' '4']
4,6,6,2.0217505385635377,"(True, False)",6,['4' '4' '' '' '' '' '4' '4' '4'],['5' '' '' '' '' '' '' '5' '']
4,7,1,1.836719082772106,"(True, True)",1,['5' '' '' '' '' '' '' '5' ''],['6' '6' '' '' '' '' '' '6' '']
4,8,1,4.234436814154833,"(True, False)",3,['6' '6' '' '' '' '' '' '6' ''],['5' '' '' '5' '5' '5' '5' '5' '5']
4,9,8,1.572557081613013,"(True, True)",8,['5' '' '' '5' '5' '5' '5' '5' '5'],['3' '' '3' '3' '3' '3' '3' '' '3']
4,10,7,1.4934529664660658,"(True, True)",7,['3' '' '3' '3' '3' '3' '3' '' '3'],['' '4' '4' '' '' '4' '' '4' '4']
4,11,1,1.0396280923359882,"(True, True)",1,['' '4' '4' '' '' '4' '' '4' '4'],['7' '' '' '7' '7' '' '7' '7' '']
4,12,0,1.07758150466816,"(True, True)",0,['7' '' '' '7' '7' '' '7' '7' ''],['3' '3' '3' '3' '3' '3' '3' '3' '3']
4,13,5,2.2679545461514863,"(True, False)",5,['3' '3' '3' '3' '3' '3' '3' '3' '3'],['2' '' '' '2' '' '' '' '' '']
5,1,3,3.7210887871515297,"(True, False)",3,['' '' '' '7' '' '' '' '7' ''],['9' '' '' '9' '9' '' '9' '9' '9']
5,2,5,4.904633255804583,"(True, False)",5,['9' '' '' '9' '9' '' '9' '9' '9'],['4' '4' '4' '4' '' '' '4' '4' '']
5,3,3,3.4082377248869307,"(False, True)",3,['4' '4' '4' '4' '' '' '4' '4' ''],['7' '7' '7' '7' '7' '7' '7' '' '7']
5,4,6,1.3888076829971396,"(True, True)",6,['7' '7' '7' '7' '7' '7' '7' '' '7'],['9' '9' '9' '9' '' '' '9' '9' '']
5,5,2,2.061000180798146,"(True, False)",2,['9' '9' '9' '9' '' '' '9' '9' ''],['' '' '' '9' '9' '' '9' '' '']
5,6,1,2.193923117938539,"(False, False)",1,['' '' '' '9' '9' '' '9' '' ''],['3' '3' '3' '3' '' '3' '3' '3' '3']
5,7,7,1.2805544830252984,"(True, True)",7,['3' '3' '3' '3' '' '3' '3' '3' '3'],['' '4' '' '4' '4' '4' '4' '4' '4']
5,8,6,2.2790854990798834,"(True, False)",6,['' '4' '' '4' '4' '4' '4' '4' '4'],['' '' '' '' '' '2' '' '2' '']
5,9,8,3.4030650627737487,"(False, False)",8,['' '' '' '' '' '2' '' '2' ''],['6' '' '6' '6' '' '6' '6' '6' '']
5,10,8,3.0002359567433814,"(False, False)",8,['6' '' '6' '6' '' '6' '6' '6' ''],['' '' '' '' '' '9' '' '' '9']
5,11,8,2.1973253383830524,"(False, False)",8,['' '' '' '' '' '9' '' '' '9'],['6' '' '' '' '6' '6' '6' '6' '6']
5,12,2,2.6528517057840872,"(False, True)",2,['6' '' '' '' '6' '6' '6' '6' '6'],['6' '' '6' '' '' '6' '6' '' '6']
6,1,3,3.505573711967372,"(True, False)",3,['6' '6' '' '' '' '6' '6' '6' '6'],['4' '4' '4' '4' '4' '4' '' '' '4']
6,2,0,2.036188333318023,"(False, True)",0,['4' '4' '4' '4' '4' '4' '' '' '4'],['3' '' '3' '' '3' '3' '' '3' '']
6,3,6,2.1375765710281485,"(True, False)",6,['3' '' '3' '' '3' '3' '' '3' ''],['6' '6' '' '' '' '' '' '6' '']
6,4,6,1.6423336275129259,"(False, True)",6,['6' '6' '' '' '' '' '' '6' ''],['3' '3' '3' '3' '3' '3' '3' '3' '3']
6,5,0,3.7672631469276894,"(False, True)",0,['3' '3' '3' '3' '3' '3' '3' '3' '3'],['1' '1' '1' '1' '1' '1' '1' '1' '1']
6,6,1,3.484556707760021,"(False, True)",1,['1' '1' '1' '1' '1' '1' '1' '1' '1'],['2' '' '' '2' '' '' '2' '' '']
6,7,0,2.517568435116118,"(True, True)",0,['2' '' '' '2' '' '' '2' '' ''],['8' '8' '8' '8' '' '8' '8' '8' '8']
6,8,3,1.199144810024336,"(True, True)",3,['8' '8' '8' '8' '' '8' '8' '8' '8'],['' '5' '5' '' '' '5' '5' '' '']
6,9,9,3.4226337675554532,"(False, False)",9,['' '5' '5' '' '' '5' '5' '' ''],['' '' '8' '' '8' '8' '' '8' '8']
6,10,6,1.8111671891419974,"(True, False)",6,['' '' '8' '' '8' '8' '' '8' '8'],['8' '8' '8' '8' '8' '8' '8' '8' '']
6,11,6,2.5214452503741995,"(False, False)",6,['8' '8' '8' '8' '8' '8' '8' '8' ''],['' '6' '6' '6' '6' '6' '6' '6' '6']
6,12,3,3.0670684060050917,"(False, False)",3,['' '6' '6' '6' '6' '6' '6' '6' '6'],['8' '' '8' '8' '' '' '8' '8' '']
7,1,4,2.6782768109678727,"(False, True)",4,['4' '4' '4' '' '' '4' '4' '4' '4'],['7' '7' '7' '7' '7' '7' '7' '7' '7']
7,2,1,1.5930244138617127,"(True, True)",1,['7' '7' '7' '7' '7' '7' '7' '7' '7'],['4' '' '' '' '4' '' '4' '4' '4']
7,3,6,1.7130903898196266,"(False, False)",6,['4' '' '' '' '4' '' '4' '4' '4'],['7' '' '' '' '' '' '' '' '']
7,4,6,3.3817580922441266,"(False, True)",6,['7' '' '' '' '' '' '' '' ''],['' '' '' '' '5' '' '' '' '']
7,5,3,3.029222629783362,"(False, True)",3,['' '' '' '' '5' '' '' '' ''],['2' '2' '2' '2' '2' '2' '2' '2' '2']
7,6,1,2.8409065488722263,"(True, False)",1,['2' '2' '2' '2' '2' '2' '2' '2' '2'],['8' '8' '8' '8' '8' '8' '8' '8' '8']
7,7,6,2.7242155970470776,"(False, True)",6,['8' '8' '8' '8' '8' '8' '8' '8' '8'],['7' '7' '7' '7' '7' '7' '7' '7' '7']
7,8,0,1.9485618130056537,"(False, True)",0,['7' '7' '7' '7' '7' '7' '7' '7' '7'],['1' '' '1' '' '' '1' '1' '1' '1']
7,9,8,3.7175728018482914,"(True, False)",8,['1' '' '1' '' '' '1' '1' '1' '1'],['1' '1' '1' '' '1' '' '1' '1' '1']
7,10,8,1.8878738152370715,"(False, False)",8,['1' '1' '1' '' '1' '' '1' '1' '1'],['' '' '' '' '' '9' '' '' '']
7,11,6,2.9321505618527226,"(False, False)",6,['' '' '' '' '' '9' '' '' ''],['8' '' '8' '' '8' '' '8' '8' '']
7,12,3,1.1508349651121534,"(True, True)",3,['8' '' '8' '' '8' '' '8' '8' ''],['' '' '5' '5' '5' '5' '5' '' '']
8,1,5,1.0665892146316764,"(True, True)",5,['8' '8' '8' '8' '8' '8' '' '8' '8'],['' '' '7' '' '' '7' '' '' '']
8,2,3,1.647936451026908,"(False, False)",3,['' '' '7' '' '' '7' '' '' ''],['' '' '' '' '' '' '' '' '5']
8,3,4,1.9886093414361312,"(True, False)",4,['' '' '' '' '' '' '' '' '5'],['4' '4' '4' '4' '4' '4' '4' '4' '4']
8,4,0,2.044850933561065,"(True, False)",0,['4' '4' '4' '4' '4' '4' '4' '4' '4'],['' '8' '8' '' '8' '8' '8' '' '8']
8,5,8,2.0339609169823234,"(False, True)",8,['' '8' '8' '' '8' '8' '8' '' '8'],['2' '2' '2' '2' '2' '2' '2' '2' '2']
8,6,8,0.9187661454170666,"(True, True)",8,['2' '2' '2' '2' '2' '2' '2' '2' '2'],['6' '' '' '' '' '' '6' '' '']
8,7,3,1.3855176952238253,"(False, True)",3,['6' '' '' '' '' '' '6' '' ''],['1' '1' '1' '' '' '1' '1' '1' '1']
8,8,2,3.441072101638383,"(False, False)",2,['1' '1' '1' '' '' '1' '1' '1' '1'],['6' '' '' '6' '6' '6' '' '' '6']
8,9,8,2.0369938804460617,"(True, False)",8,['6' '' '' '6' '6' '6' '' '' '6'],['' '' '' '' '' '2' '' '2' '']
8,10,7,2.842652858600559,"(True, False)",7,['' '' '' '' '' '2' '' '2' ''],['' '3' '3' '' '3' '3' '' '' '3']
8,11,1,1.7666387808694708,"(False, True)",1,['' '3' '3' '' '3' '3' '' '' '3'],['6' '' '6' '' '6' '6' '6' '6' '6']
8,12,9,3.1662552745528956,"(False, True)",9,['6' '' '6' '' '6' '6' '6' '6' '6'],['2' '2' '' '' '' '2' '2' '' '2']
8,13,1,0.940394492095038,"(True, True)",1,['2' '2' '' '' '' '2' '2' '' '2'],['' '' '' '' '9' '9' '9' '9' '']
9,1,3,3.9496469841969883,"(False, False)",3,['5' '5' '5' '5' '5' '' '5' '5' '5'],['' '9' '9' '9' '9' '9' '' '' '']
9,2,7,1.3732590529252775,"(True, True)",7,['' '9' '9' '9' '9' '9' '' '' ''],['' '' '' '8' '8' '8' '' '' '']
9,3,0,1.5344052511100017,"(False, True)",0,['' '' '' '8' '8' '8' '' '' ''],['' '' '7' '7' '' '' '' '7' '']
9,4,2,2.0161323931833977,"(False, False)",2,['' '' '7' '7' '' '' '' '7' ''],['1' '1' '1' '1' '1' '1' '1' '1' '1']
9,5,1,2.9016795830002593,"(False, True)",1,['1' '1' '1' '1' '1' '1' '1' '1' '1'],['2' '2' '' '2' '' '2' '' '2' '2']
9,6,3,3.646880391382183,"(False, False)",3,['2' '2' '' '2' '' '2' '' '2' '2'],['' '5' '5' '5' '5' '5' '5' '5' '']
9,7,5,4.147340813467963,"(False, False)",5,['' '5' '5' '5' '5' '5' '5' '5' ''],['3' '3' '3' '3' '3' '3' '3' '' '3']
9,8,1,2.4577599124813787,"(True, False)",1,['3' '3' '3' '3' '3' '3' '3' '' '3'],['9' '9' '' '9' '9' '9' '9' '9' '9']
9,9,4,2.1732060392669155,"(False, True)",4,['9' '9' '' '9' '9' '9' '9' '9' '9'],['6' '' '6' '6' '' '' '6' '' '6']
9,10,1,1.941345596955216,"(False, True)",1,['6' '' '6' '6' '' '' '6' '' '6'],['6' '6' '6' '6' '' '6' '6' '6' '6']
9,11,4,3.1996251505379405,"(False, False)",4,['6' '6' '6' '6' '' '6' '6' '6' '6'],['' '5' '' '5' '5' '' '5' '5' '5']
9,12,8,1.9810644713488728,"(True, False)",8,['' '5' '' '5' '5' '' '5' '5' '5'],['' '' '1' '1' '' '1' '' '' '']
10,1,1,1.42681625404839,"(True, False)",1,['8' '8' '8' '8' '8' '8' '8' '8' '8'],['3' '3' '' '' '' '' '' '3' '']
10,2,9,2.217644431573717,"(False, True)",9,['3' '3' '' '' '' '' '' '3' ''],['6' '6' '6' '' '6' '6' '6' '6' '6']
10,3,6,4.0222856547488846,"(False, False)",6,['6' '6' '6' '' '6' '6' '6' '6' '6'],['3' '' '3' '3' '3' '3' '3' '3' '3']
10,4,9,1.0574964529887438,"(True, True)",9,['3' '' '3' '3' '3' '3' '3' '3' '3'],['' '6' '6' '' '' '' '' '' '']
10,5,8,2.2721508223239653,"(True, False)",2,['' '6' '6' '' '' '' '' '' ''],['6' '' '6' '6' '6' '6' '' '' '6']
10,6,7,2.2201683260245773,"(True, True)",7,['6' '' '6' '6' '6' '6' '' '' '6'],['' '1' '1' '' '' '1' '' '' '']
10,7,2,1.8115789643024982,"(True, True)",2,['' '1' '1' '' '' '1' '' '' ''],['' '' '1' '' '' '' '' '' '']
10,8,5,0.9219906322105089,"(True, True)",5,['' '' '1' '' '' '' '' '' ''],['4' '' '4' '4' '4' '4' '4' '4' '4']
10,9,0,3.8688252878209823,"(False, True)",0,['4' '' '4' '4' '4' '4' '4' '4' '4'],['2' '2' '2' '2' '2' '2' '2' '2' '2']
10,10,0,1.0062187625444494,"(True, True)",0,['2' '2' '2' '2' '2' '2' '2' '2' '2'],['' '' '8' '8' '' '' '' '8' '']
10,11,1,2.213602523204827,"(False, False)",1,['' '' '8' '8' '' '' '' '8' ''],['6' '6' '6' '6' '6' '' '6' '6' '6']
10,12,7,0.9795801655372998,"(True, True)",7,['6' '6' '6' '6' '6' '' '6' '6' '6'],['1' '1' '' '1' '1' '1' '' '' '1']
10,13,4,2.532514149744202,"(False, False)",4,['1' '1' '' '1' '1' '1' '' '' '1'],['3' '3' '' '3' '3' '3' '3' '3' '3']
