Blocks,Trials,answer,RT,Cue,cor_answer,stim_left,stim_right
1,1,8,1.7508292960219478,True,8,['9' '' '9' '9' '9' '9' '9' '9' '9'],['' '' '' '' '' '9' '9' '' '']
1,2,5,1.569409587197697,True,5,['' '' '' '' '' '9' '9' '' ''],['' '6' '' '6' '' '' '' '' '']
1,3,6,6.450157585396482,False,6,['' '6' '' '6' '' '' '' '' ''],['' '' '9' '9' '9' '' '' '' '9']
1,4,0,1.6337453383221145,True,0,['' '' '9' '9' '9' '' '' '' '9'],['' '' '1' '1' '' '' '1' '1' '1']
1,5,8,3.10324754620342,False,8,['' '' '1' '1' '' '' '1' '1' '1'],['3' '' '' '' '3' '' '' '' '3']
1,6,1,2.712702746598552,True,1,['3' '' '' '' '3' '' '' '' '3'],['' '' '' '' '' '8' '' '8' '']
1,7,1,1.3387182032965939,True,1,['' '' '' '' '' '8' '' '8' ''],['3' '3' '3' '3' '3' '3' '' '' '3']
1,8,2,4.81270971804679,False,2,['3' '3' '3' '3' '3' '3' '' '' '3'],['2' '' '2' '2' '2' '2' '' '' '']
1,9,2,3.53537359306938,False,2,['2' '' '2' '2' '2' '2' '' '' ''],['3' '' '3' '3' '' '3' '3' '3' '3']
1,10,8,3.0951583668120293,False,8,['3' '' '3' '3' '' '3' '3' '3' '3'],['' '' '' '' '' '' '' '3' '']
1,11,6,4.305515718702736,False,6,['' '' '' '' '' '' '' '3' ''],['4' '4' '' '' '' '4' '' '4' '4']
2,1,2,6.058442195195312,False,2,['6' '6' '6' '6' '6' '6' '6' '6' '6'],['' '' '5' '5' '5' '' '' '' '']
2,2,7,1.4192495503029932,True,7,['' '' '5' '5' '5' '' '' '' ''],['2' '' '' '' '2' '2' '2' '' '2']
2,3,1,4.659025268822006,False,1,['2' '' '' '' '2' '2' '2' '' '2'],['3' '3' '' '3' '3' '3' '' '' '3']
2,4,2,3.6679870285079232,False,2,['3' '3' '' '3' '3' '3' '' '' '3'],['' '9' '9' '9' '9' '9' '' '9' '']
2,5,1,6.733598708059617,False,1,['' '9' '9' '9' '9' '9' '' '9' ''],['7' '7' '' '7' '7' '' '' '7' '']
2,6,9,3.2814688154057876,False,9,['7' '7' '' '7' '7' '' '' '7' ''],['2' '' '' '' '2' '' '2' '' '2']
2,7,3,4.0035121548371535,False,3,['2' '' '' '' '2' '' '2' '' '2'],['5' '5' '5' '5' '5' '5' '5' '5' '5']
2,8,7,1.1761769491713494,True,7,['5' '5' '5' '5' '5' '5' '5' '5' '5'],['2' '2' '2' '2' '2' '2' '2' '2' '2']
2,9,8,1.0180483925823864,True,8,['2' '2' '2' '2' '2' '2' '2' '2' '2'],['' '' '' '' '' '' '6' '6' '']
2,10,5,2.425552966160467,True,5,['' '' '' '' '' '' '6' '6' ''],['9' '9' '' '' '9' '9' '9' '' '']
3,1,3,1.7648901728616693,True,3,['' '6' '6' '6' '6' '6' '6' '6' '6'],['' '7' '' '' '' '' '' '' '']
3,2,2,1.1260346090321036,True,2,['' '7' '' '' '' '' '' '' ''],['5' '' '' '' '' '' '' '5' '5']
3,3,8,5.473361019946424,False,8,['5' '' '' '' '' '' '' '5' '5'],['' '' '3' '3' '3' '' '3' '3' '']
3,4,7,3.5054614792952634,False,7,['' '' '3' '3' '3' '' '3' '3' ''],['' '' '' '4' '' '' '4' '' '']
3,5,9,3.6599028287228066,False,9,['' '' '' '4' '' '' '4' '' ''],['9' '9' '9' '9' '' '9' '9' '9' '']
3,6,5,1.0716488779798965,True,5,['9' '9' '9' '9' '' '9' '9' '9' ''],['' '' '6' '' '' '' '' '' '']
3,7,2,1.181619659179887,True,2,['' '' '6' '' '' '' '' '' ''],['' '' '6' '' '6' '' '' '' '']
3,8,4,1.1028564555617777,True,4,['' '' '6' '' '6' '' '' '' ''],['8' '8' '8' '' '' '' '8' '8' '']
3,9,1,2.658160732507895,False,1,['8' '8' '8' '' '' '' '8' '8' ''],['' '9' '' '9' '9' '' '9' '9' '9']
3,10,2,3.3503609065646742,False,2,['' '9' '' '9' '9' '' '9' '9' '9'],['6' '6' '' '6' '' '6' '6' '' '6']
3,11,9,1.4703487410024536,True,9,['6' '6' '' '6' '' '6' '6' '' '6'],['' '' '3' '' '' '' '' '' '3']
3,12,1,1.018491577570785,True,1,['' '' '3' '' '' '' '' '' '3'],['' '8' '8' '8' '8' '8' '8' '8' '8']
4,1,9,3.1038106247951873,False,9,['' '' '2' '' '2' '2' '' '2' '2'],['2' '' '2' '' '' '' '' '2' '2']
4,2,3,1.5215141987728202,True,3,['2' '' '2' '' '' '' '' '2' '2'],['1' '' '1' '1' '1' '1' '' '1' '']
4,3,8,1.1723415029518947,True,8,['1' '' '1' '1' '1' '1' '' '1' ''],['7' '7' '7' '' '7' '' '' '7' '7']
4,4,0,1.556878598723415,True,0,['7' '7' '7' '' '7' '' '' '7' '7'],['3' '3' '' '3' '3' '3' '3' '' '3']
4,5,5,1.0469745442505882,True,5,['3' '3' '' '3' '3' '3' '3' '' '3'],['2' '2' '2' '2' '2' '' '2' '2' '2']
4,6,1,1.028443895921555,True,1,['2' '2' '2' '2' '2' '' '2' '2' '2'],['9' '' '9' '' '9' '' '' '' '']
4,7,4,1.0607060009624547,True,4,['9' '' '9' '' '9' '' '' '' ''],['' '' '' '' '' '' '' '' '5']
4,8,8,2.5785621041213744,False,8,['' '' '' '' '' '' '' '' '5'],['5' '5' '5' '' '5' '5' '5' '5' '']
4,9,1,3.3375483787931444,False,1,['5' '5' '5' '' '5' '5' '5' '5' ''],['' '' '' '7' '7' '7' '7' '' '']
4,10,0,1.1853930518400375,True,0,['' '' '' '7' '7' '7' '7' '' ''],['' '3' '3' '' '3' '' '3' '3' '']
4,11,6,3.1381641646057687,False,6,['' '3' '3' '' '3' '' '3' '3' ''],['' '' '' '' '' '' '' '6' '']
4,12,3,1.2915023396490142,True,3,['' '' '' '' '' '' '' '6' ''],['' '' '' '7' '7' '7' '' '' '']
4,13,2,3.1259105019144044,False,1,['' '' '' '7' '7' '7' '' '' ''],['1' '1' '1' '1' '1' '1' '1' '1' '']
5,1,7,1.155006343252353,True,7,['' '2' '2' '2' '2' '2' '' '2' '2'],['5' '5' '5' '5' '5' '5' '5' '' '']
5,2,3,5.076927644017815,False,3,['5' '5' '5' '5' '5' '5' '5' '' ''],['6' '' '6' '6' '' '6' '6' '' '6']
5,3,9,1.246218563360344,True,9,['6' '' '6' '6' '' '6' '6' '' '6'],['' '' '' '' '' '3' '' '' '']
5,4,1,1.0367223003631807,True,1,['' '' '' '' '' '3' '' '' ''],['8' '' '' '' '8' '' '' '' '']
5,5,9,1.5713937689033628,False,9,['8' '' '' '' '8' '' '' '' ''],['' '8' '8' '8' '' '8' '8' '8' '8']
5,6,1,2.7715145818201563,False,1,['' '8' '8' '8' '' '8' '8' '8' '8'],['7' '' '7' '7' '' '7' '' '' '']
5,7,0,1.9149149942850272,True,0,['7' '' '7' '7' '' '7' '' '' ''],['' '3' '' '3' '' '3' '' '' '']
5,8,7,1.6284351624572082,True,7,['' '3' '' '3' '' '3' '' '' ''],['4' '' '4' '' '4' '' '4' '4' '4']
5,9,1,4.6424979545308815,False,1,['4' '' '4' '' '4' '' '4' '4' '4'],['' '9' '9' '' '9' '' '9' '' '9']
5,10,2,4.804279627127471,False,2,['' '9' '9' '' '9' '' '9' '' '9'],['6' '6' '6' '6' '6' '6' '' '' '6']
5,11,8,1.1358183868524065,True,8,['6' '6' '6' '6' '6' '6' '' '' '6'],['' '' '' '' '2' '' '' '' '2']
5,12,9,2.1465716557731866,False,9,['' '' '' '' '2' '' '' '' '2'],['3' '3' '3' '3' '' '3' '3' '3' '']
6,1,7,2.9368064940199474,False,7,['3' '' '' '3' '' '3' '' '' ''],['' '' '1' '1' '' '1' '1' '' '']
6,2,2,1.0806228951578305,True,2,['' '' '1' '1' '' '1' '1' '' ''],['1' '1' '1' '1' '1' '1' '' '1' '1']
6,3,6,0.9905977366533989,True,6,['1' '1' '1' '1' '1' '1' '' '1' '1'],['5' '' '' '5' '5' '' '' '' '']
6,4,4,1.3434074605229398,False,4,['5' '' '' '5' '5' '' '' '' ''],['' '' '1' '' '' '' '' '' '']
6,5,8,0.9785754341455686,True,8,['' '' '1' '' '' '' '' '' ''],['7' '7' '7' '7' '' '7' '7' '' '7']
6,6,9,1.6354353401911794,False,9,['7' '7' '7' '7' '' '7' '7' '' '7'],['' '3' '' '3' '' '' '' '' '']
6,7,8,2.809437350420012,False,8,['' '3' '' '3' '' '' '' '' ''],['' '' '5' '5' '5' '5' '5' '' '5']
6,8,4,2.07064912619353,True,4,['' '' '5' '5' '5' '5' '5' '' '5'],['' '' '' '9' '' '' '9' '' '']
6,9,3,2.628154006208206,False,3,['' '' '' '9' '' '' '9' '' ''],['7' '' '' '' '' '' '' '' '']
6,10,1,1.2662549681153905,True,1,['7' '' '' '' '' '' '' '' ''],['' '4' '4' '' '' '' '' '' '4']
6,11,4,1.495415697558201,False,4,['' '4' '4' '' '' '' '' '' '4'],['' '' '' '' '' '' '' '9' '']
6,12,6,1.5402026623269194,True,6,['' '' '' '' '' '' '' '9' ''],['' '' '' '7' '7' '' '' '' '']
6,13,9,1.037619012598043,True,9,['' '' '' '7' '7' '' '' '' ''],['2' '2' '2' '2' '2' '2' '2' '' '2']
6,14,0,1.2850997147070302,True,0,['2' '2' '2' '2' '2' '2' '2' '' '2'],['8' '8' '8' '' '8' '8' '8' '8' '8']
6,15,2,1.3374376783076514,True,2,['8' '8' '8' '' '8' '8' '8' '8' '8'],['4' '4' '4' '4' '4' '4' '4' '4' '4']
7,1,8,1.2239248646319538,True,8,['' '' '' '2' '' '' '' '' '2'],['' '' '' '6' '6' '6' '' '6' '']
7,2,6,2.199138681277873,False,6,['' '' '' '6' '6' '6' '' '6' ''],['1' '' '' '1' '' '' '' '' '']
7,3,4,1.8464706846725676,False,4,['1' '' '' '1' '' '' '' '' ''],['' '' '9' '' '9' '' '' '' '']
7,4,4,2.1649571294174166,True,4,['' '' '9' '' '9' '' '' '' ''],['5' '5' '5' '5' '5' '5' '' '5' '']
7,5,4,1.3250514814717462,True,4,['5' '5' '5' '5' '5' '5' '' '5' ''],['9' '9' '9' '9' '9' '9' '9' '9' '9']
7,6,3,1.991483723581041,True,3,['9' '9' '9' '9' '9' '9' '9' '9' '9'],['4' '4' '4' '4' '' '4' '' '4' '4']
7,7,5,1.0381912843095051,True,5,['4' '4' '4' '4' '' '4' '' '4' '4'],['' '1' '1' '1' '1' '1' '' '' '']
7,8,8,1.1492154438292346,True,8,['' '1' '1' '1' '1' '1' '' '' ''],['7' '7' '7' '7' '7' '' '7' '7' '7']
7,9,4,1.0962573276829062,True,4,['7' '7' '7' '7' '7' '' '7' '7' '7'],['' '7' '7' '' '7' '' '' '' '7']
7,10,1,2.0217283218580633,True,1,['' '7' '7' '' '7' '' '' '' '7'],['' '' '4' '' '' '4' '' '' '']
7,11,7,3.79591771851301,False,7,['' '' '4' '' '' '4' '' '' ''],['8' '8' '' '' '8' '8' '' '8' '']
7,12,1,0.9299254437974014,True,1,['8' '8' '' '' '8' '8' '' '8' ''],['' '' '3' '' '' '' '' '' '']
7,13,9,0.9915250926205772,True,9,['' '' '3' '' '' '' '' '' ''],['' '' '' '' '' '' '' '' '6']
7,14,2,1.0725310344405443,False,2,['' '' '' '' '' '' '' '' '6'],['' '' '' '4' '' '' '' '' '']
7,15,5,1.4224537356240035,False,5,['' '' '' '4' '' '' '' '' ''],['' '' '3' '' '' '3' '' '3' '3']
8,1,7,2.04024786183345,True,7,['' '' '' '' '' '5' '5' '' '5'],['' '' '' '' '' '2' '' '2' '2']
8,2,1,2.830433287061169,False,1,['' '' '' '' '' '2' '' '2' '2'],['4' '4' '4' '' '4' '4' '4' '4' '4']
8,3,3,4.091212603154418,False,3,['4' '4' '4' '' '4' '4' '4' '4' '4'],['' '' '' '7' '7' '' '7' '7' '7']
8,4,2,1.164068461163879,True,2,['' '' '' '7' '7' '' '7' '7' '7'],['5' '5' '5' '5' '5' '5' '5' '5' '5']
8,5,4,2.5813840088749203,False,4,['5' '5' '5' '5' '5' '5' '5' '5' '5'],['9' '9' '' '9' '9' '' '' '9' '']
8,6,1,1.4768444462824846,True,1,['9' '9' '' '9' '9' '' '' '9' ''],['2' '2' '2' '2' '2' '2' '2' '2' '2']
8,7,5,1.1042913483552184,True,5,['2' '2' '2' '2' '2' '2' '2' '2' '2'],['3' '3' '3' '3' '3' '' '' '' '3']
8,8,7,1.66840569850865,True,7,['3' '3' '3' '3' '3' '' '' '' '3'],['' '4' '' '' '' '' '' '' '']
8,9,1,1.0332300639529421,True,1,['' '4' '' '' '' '' '' '' ''],['' '7' '' '' '' '7' '7' '' '7']
8,10,0,3.0813729005212736,False,0,['' '7' '' '' '' '7' '7' '' '7'],['' '2' '' '' '2' '2' '2' '2' '2']
8,11,9,1.044168727456963,True,9,['' '2' '' '' '2' '2' '2' '2' '2'],['' '' '' '' '' '7' '' '' '7']
8,12,3,1.1461560501456916,True,3,['' '' '' '' '' '7' '' '' '7'],['6' '6' '6' '6' '6' '6' '6' '6' '6']
8,13,2,1.9881604107486055,False,2,['6' '6' '6' '6' '6' '6' '6' '6' '6'],['' '' '4' '' '' '' '' '4' '4']
9,1,7,3.6818828122359264,False,7,['4' '4' '4' '4' '4' '4' '' '4' '4'],['8' '8' '8' '8' '8' '8' '8' '8' '8']
9,2,6,2.6915953433781397,False,6,['8' '8' '8' '8' '8' '8' '8' '8' '8'],['4' '4' '4' '4' '4' '' '' '4' '4']
9,3,2,1.253597957288548,True,2,['4' '4' '4' '4' '4' '' '' '4' '4'],['' '' '' '' '' '8' '8' '8' '']
9,4,5,1.8920934572570332,False,5,['' '' '' '' '' '8' '8' '8' ''],['' '' '' '' '' '' '2' '' '2']
9,5,3,1.129805320365449,True,3,['' '' '' '' '' '' '2' '' '2'],['' '1' '' '' '' '' '' '' '']
9,6,7,3.133163107397195,False,7,['' '1' '' '' '' '' '' '' ''],['6' '6' '6' '' '' '6' '6' '6' '']
9,7,2,1.037989035672581,True,2,['6' '6' '6' '' '' '6' '6' '6' ''],['6' '' '6' '6' '' '6' '6' '6' '6']
9,8,0,1.2529850826313123,True,0,['6' '' '6' '6' '' '6' '6' '6' '6'],['4' '' '' '' '' '4' '' '4' '']
9,9,8,2.4836986832387993,False,8,['4' '' '' '' '' '4' '' '4' ''],['' '3' '' '' '' '3' '3' '3' '3']
9,10,7,2.758242781102126,False,7,['' '3' '' '' '' '3' '3' '3' '3'],['' '' '' '' '6' '' '' '' '6']
9,11,0,1.095730255477065,True,0,['' '' '' '' '6' '' '' '' '6'],['' '' '' '4' '' '' '' '' '4']
9,12,1,1.0445077237527585,True,1,['' '' '' '4' '' '' '' '' '4'],['' '' '7' '' '7' '' '' '' '7']
9,13,8,0.9390921334470477,True,8,['' '' '7' '' '7' '' '' '' '7'],['' '1' '1' '' '1' '' '' '' '1']
10,1,1,2.39099411333882,False,1,['' '6' '' '' '6' '' '' '' '6'],['3' '3' '3' '3' '3' '3' '' '3' '3']
10,2,4,0.9190982468726361,True,4,['3' '3' '3' '3' '3' '3' '' '3' '3'],['1' '' '1' '' '1' '1' '1' '' '']
10,3,7,1.2598527262198331,True,7,['1' '' '1' '' '1' '1' '1' '' ''],['' '6' '' '' '' '' '' '' '']
10,4,4,2.2737044595824045,False,4,['' '6' '' '' '' '' '' '' ''],['' '2' '' '' '' '2' '' '2' '']
10,5,9,1.0541126187827103,True,9,['' '2' '' '' '' '2' '' '2' ''],['7' '' '7' '7' '' '7' '' '7' '']
10,6,8,0.9636833460499474,True,8,['7' '' '7' '7' '' '7' '' '7' ''],['' '1' '1' '' '1' '' '1' '1' '']
10,7,6,1.950060674591441,False,6,['' '1' '1' '' '1' '' '1' '1' ''],['' '5' '' '' '' '' '' '' '']
10,8,3,1.2386932286544834,True,3,['' '5' '' '' '' '' '' '' ''],['' '8' '' '' '8' '' '' '8' '8']
10,9,0,3.077217993386512,False,0,['' '8' '' '' '8' '' '' '8' '8'],['' '7' '' '7' '7' '7' '7' '7' '']
10,10,4,2.663448691665508,False,4,['' '7' '' '7' '7' '7' '7' '7' ''],['6' '' '6' '6' '6' '6' '6' '6' '6']
10,11,4,1.034811663617802,True,4,['6' '' '6' '6' '6' '6' '6' '6' '6'],['' '' '8' '8' '8' '8' '8' '8' '8']
10,12,9,2.1609631018809523,False,9,['' '' '8' '8' '8' '8' '8' '8' '8'],['' '' '' '' '' '4' '' '4' '']
10,13,8,1.0736652356044942,True,8,['' '' '' '' '' '4' '' '4' ''],['4' '' '' '' '4' '4' '4' '4' '4']
10,14,3,1.1503182351661962,True,3,['4' '' '' '' '4' '4' '4' '4' '4'],['9' '9' '9' '9' '9' '9' '9' '9' '9']
10,15,5,2.486902485513383,False,5,['9' '9' '9' '9' '9' '9' '9' '9' '9'],['' '' '' '6' '6' '6' '6' '6' '6']
