Blocks,Trials,answer,RT,Cue,cor_answer,stim_left,stim_right
1,1,5,3.905772436574807,"(False, False)",5,['8' '8' '8' '8' '' '8' '8' '8' '8'],['' '6' '6' '' '6' '6' '6' '6' '6']
1,2,1,1.195932963769792,"(True, True)",1,['' '6' '6' '' '6' '6' '6' '6' '6'],['' '' '' '' '' '' '5' '' '']
1,3,3,2.7330819781141145,"(False, True)",3,['' '' '' '' '' '' '5' '' ''],['2' '2' '2' '2' '2' '2' '2' '2' '2']
1,4,8,3.932982156154594,"(False, True)",8,['2' '2' '2' '2' '2' '2' '2' '2' '2'],['9' '' '' '9' '9' '' '' '' '']
1,5,7,1.1650084576699555,"(True, True)",7,['9' '' '' '9' '9' '' '' '' ''],['' '8' '8' '' '' '' '8' '' '8']
1,6,5,2.927660871936496,"(False, True)",5,['' '8' '8' '' '' '' '8' '' '8'],['' '1' '' '1' '' '' '' '1' '1']
1,7,6,2.312795520499094,"(False, True)",6,['' '1' '' '1' '' '' '' '1' '1'],['2' '' '2' '2' '2' '' '2' '' '2']
1,8,6,1.3080461249469408,"(True, True)",6,['2' '' '2' '2' '2' '' '2' '' '2'],['' '' '4' '' '' '' '' '' '']
1,9,9,1.8237989188892243,"(True, True)",9,['' '' '4' '' '' '' '' '' ''],['' '' '' '' '' '5' '' '' '5']
1,10,1,1.1102002261504822,"(True, True)",1,['' '' '' '' '' '5' '' '' '5'],['' '' '' '' '6' '6' '6' '6' '']
1,11,9,2.4582276124547207,"(False, False)",9,['' '' '' '' '6' '6' '6' '6' ''],['' '' '5' '' '' '5' '5' '5' '5']
1,12,2,2.6219241353105645,"(True, False)",2,['' '' '5' '' '' '5' '5' '5' '5'],['8' '8' '' '' '8' '8' '8' '8' '8']
1,13,5,2.4187948739163403,"(False, False)",5,['8' '8' '' '' '8' '8' '8' '8' '8'],['9' '9' '9' '9' '9' '9' '9' '' '9']
2,1,4,3.0332967140725486,"(False, True)",4,['' '' '' '' '7' '7' '' '7' ''],['' '' '' '' '' '1' '' '' '1']
2,2,3,1.44574986746602,"(False, False)",3,['' '' '' '' '' '1' '' '' '1'],['' '' '' '' '' '' '' '' '4']
2,3,6,3.011841887531318,"(False, False)",6,['' '' '' '' '' '' '' '' '4'],['2' '2' '2' '' '2' '' '' '2' '']
2,4,1,4.859136888619105,"(False, False)",1,['2' '2' '2' '' '2' '' '' '2' ''],['9' '' '9' '9' '9' '' '9' '' '9']
2,5,4,4.413920222105844,"(False, True)",4,['9' '' '9' '9' '9' '' '9' '' '9'],['' '' '' '8' '8' '8' '' '' '8']
2,6,5,1.249260719943777,"(True, True)",5,['' '' '' '8' '8' '8' '' '' '8'],['7' '7' '7' '7' '7' '7' '7' '7' '7']
2,7,4,4.983183102433031,"(True, False)",4,['7' '7' '7' '7' '7' '7' '7' '7' '7'],['7' '7' '7' '7' '' '7' '7' '' '7']
2,8,4,4.7472275082664055,"(True, False)",4,['7' '7' '7' '7' '' '7' '7' '' '7'],['8' '8' '8' '8' '8' '' '' '8' '8']
2,9,2,2.968824215290624,"(True, False)",2,['8' '8' '8' '8' '8' '' '' '8' '8'],['3' '' '' '' '' '3' '3' '3' '']
2,10,2,2.487865081772725,"(True, True)",2,['3' '' '' '' '' '3' '3' '3' ''],['' '9' '9' '9' '9' '9' '' '' '9']
3,1,4,2.090320487480767,"(True, False)",4,['' '1' '1' '1' '1' '1' '' '1' '1'],['6' '' '' '' '' '' '' '6' '6']
3,2,5,3.0304445486331133,"(False, True)",5,['6' '' '' '' '' '' '' '6' '6'],['2' '' '2' '2' '' '2' '2' '2' '2']
3,3,3,4.346815426667945,"(False, False)",3,['2' '' '2' '2' '' '2' '2' '2' '2'],['' '3' '3' '' '3' '3' '' '3' '3']
3,4,4,2.5451673301035953,"(False, True)",4,['' '3' '3' '' '3' '3' '' '3' '3'],['8' '' '' '' '8' '' '' '8' '8']
3,5,4,4.889227502137146,"(True, False)",4,['8' '' '' '' '8' '' '' '8' '8'],['5' '5' '5' '' '5' '' '5' '5' '']
3,6,1,4.416754384352316,"(True, False)",1,['5' '5' '5' '' '5' '' '5' '5' ''],['' '' '2' '2' '2' '2' '2' '2' '']
3,7,8,3.782278576047247,"(False, False)",8,['' '' '2' '2' '2' '2' '2' '2' ''],['8' '' '' '' '' '' '' '' '8']
3,8,0,1.5082971737288062,"(True, True)",0,['8' '' '' '' '' '' '' '' '8'],['' '' '2' '' '2' '2' '' '' '']
3,9,9,3.8398462757140805,"(True, False)",9,['' '' '2' '' '2' '2' '' '' ''],['7' '7' '' '7' '7' '' '7' '7' '7']
3,10,3,1.0591749634577354,"(True, True)",3,['7' '7' '' '7' '7' '' '7' '7' '7'],['6' '6' '6' '6' '6' '6' '6' '' '']
3,11,1,0.8573319727515809,"(True, True)",1,['6' '6' '6' '6' '6' '6' '6' '' ''],['' '' '5' '' '' '' '' '' '5']
4,1,3,1.0853569688442803,"(True, True)",3,['4' '' '4' '4' '4' '4' '4' '4' ''],['9' '9' '9' '' '9' '' '9' '9' '9']
4,2,1,4.258714694588889,"(False, False)",1,['9' '9' '9' '' '9' '' '9' '9' '9'],['7' '' '7' '' '' '7' '' '7' '']
4,3,5,3.3489601049241173,"(False, False)",5,['7' '' '7' '' '' '7' '' '7' ''],['' '' '' '5' '' '' '' '' '']
4,4,2,1.4295803187560523,"(False, False)",2,['' '' '' '5' '' '' '' '' ''],['' '' '' '' '4' '' '' '' '']
4,5,2,2.988534264290138,"(False, True)",2,['' '' '' '' '4' '' '' '' ''],['1' '1' '1' '1' '' '1' '1' '' '1']
4,6,2,0.9782804882161145,"(True, True)",2,['1' '1' '1' '1' '' '1' '1' '' '1'],['' '1' '1' '1' '1' '1' '1' '1' '1']
4,7,2,4.323789342722648,"(False, False)",2,['' '1' '1' '1' '1' '1' '1' '1' '1'],['' '5' '' '' '' '5' '5' '5' '']
4,8,9,1.5392274255282246,"(True, True)",9,['' '5' '' '' '' '5' '5' '5' ''],['' '' '' '' '4' '' '' '' '']
4,9,0,2.7974169631447694,"(False, True)",0,['' '' '' '' '4' '' '' '' ''],['' '' '' '' '' '' '' '9' '9']
4,10,5,3.892786388666991,"(False, True)",5,['' '' '' '' '' '' '' '9' '9'],['' '' '' '' '3' '' '3' '' '3']
4,11,9,2.175638768612316,"(True, True)",9,['' '' '' '' '3' '' '3' '' '3'],['' '6' '' '' '' '' '6' '' '']
4,12,8,2.5681620042228133,"(True, False)",8,['' '6' '' '' '' '' '6' '' ''],['' '' '' '4' '' '4' '' '' '']
5,1,2,3.031226346868607,"(False, True)",2,['6' '6' '6' '6' '6' '6' '6' '6' '6'],['3' '' '' '' '3' '3' '3' '' '3']
5,2,1,4.787662679917048,"(False, False)",1,['3' '' '' '' '3' '3' '3' '' '3'],['4' '4' '4' '4' '4' '' '' '4' '']
5,3,1,3.151921668490104,"(False, False)",0,['4' '4' '4' '4' '4' '' '' '4' ''],['' '' '4' '4' '4' '' '' '4' '']
5,4,3,3.1428063070929966,"(True, False)",3,['' '' '4' '4' '4' '' '' '4' ''],['1' '1' '1' '1' '1' '1' '1' '1' '1']
5,5,1,5.7423494090353415,"(False, False)",1,['1' '1' '1' '1' '1' '1' '1' '1' '1'],['' '7' '' '' '' '7' '' '' '']
5,6,1,2.3068759173970648,"(False, True)",0,['' '7' '' '' '' '7' '' '' ''],['8' '8' '8' '8' '8' '8' '8' '8' '8']
5,7,4,3.268583125722216,"(True, False)",4,['8' '8' '8' '8' '8' '8' '8' '8' '8'],['8' '8' '' '8' '' '8' '8' '8' '']
5,8,1,1.0335073897363145,"(True, True)",1,['8' '8' '' '8' '' '8' '8' '8' ''],['' '' '' '3' '3' '' '' '3' '3']
5,9,0,3.8955619447738172,"(True, False)",0,['' '' '' '3' '3' '' '' '3' '3'],['8' '8' '' '8' '8' '' '8' '8' '8']
6,1,8,5.460470350656124,"(False, True)",8,['4' '4' '4' '4' '4' '4' '4' '4' '4'],['9' '' '9' '9' '9' '9' '' '9' '9']
6,2,1,4.644717709932593,"(False, False)",1,['9' '' '9' '9' '9' '9' '' '9' '9'],['8' '' '' '' '' '8' '' '8' '8']
6,3,5,2.0949802501140766,"(False, True)",5,['8' '' '' '' '' '8' '' '8' '8'],['' '' '' '1' '' '' '' '' '']
6,4,0,3.5617869586403685,"(True, False)",0,['' '' '' '1' '' '' '' '' ''],['5' '5' '5' '5' '5' '5' '5' '5' '5']
6,5,5,3.2961816376623574,"(False, False)",5,['5' '5' '5' '5' '5' '5' '5' '5' '5'],['' '4' '' '4' '' '4' '4' '4' '4']
6,6,7,2.3295450018540578,"(False, False)",7,['' '4' '' '4' '' '4' '4' '4' '4'],['5' '' '' '' '' '' '' '' '']
6,7,0,5.06744647305959,"(False, True)",0,['5' '' '' '' '' '' '' '' ''],['9' '9' '9' '9' '9' '9' '9' '9' '9']
6,8,0,1.9182091955713076,"(True, False)",0,['9' '9' '9' '9' '9' '9' '9' '9' '9'],['' '' '3' '' '' '' '' '' '']
6,9,2,1.2971679828151537,"(True, True)",2,['' '' '3' '' '' '' '' '' ''],['9' '' '9' '9' '9' '9' '' '9' '9']
6,10,8,3.5416218502073207,"(False, False)",8,['9' '' '9' '9' '9' '9' '' '9' '9'],['' '' '' '' '' '' '' '' '9']
7,1,7,4.608748096258296,"(False, True)",7,['4' '' '' '' '' '' '' '' ''],['' '6' '6' '' '' '6' '6' '6' '']
7,2,0,0.9973343782844495,"(True, True)",0,['' '6' '6' '' '' '6' '6' '6' ''],['' '4' '4' '4' '4' '4' '4' '' '4']
7,3,3,2.3322715279887234,"(True, False)",3,['' '4' '4' '4' '4' '4' '4' '' '4'],['3' '3' '3' '3' '3' '3' '3' '3' '3']
7,4,0,3.267981359417263,"(True, False)",0,['3' '3' '3' '3' '3' '3' '3' '3' '3'],['4' '4' '4' '4' '4' '4' '' '4' '']
7,5,3,1.109890341402206,"(True, True)",3,['4' '4' '4' '4' '4' '4' '' '4' ''],['9' '9' '9' '9' '' '9' '9' '' '9']
7,6,9,1.8259999050046645,"(False, False)",9,['9' '9' '9' '9' '' '9' '9' '' '9'],['' '' '' '' '7' '' '' '' '7']
7,7,0,1.3371622677591404,"(False, False)",0,['' '' '' '' '7' '' '' '' '7'],['9' '9' '' '9' '9' '9' '9' '9' '9']
7,8,4,3.4427280123554738,"(False, False)",4,['9' '9' '' '9' '9' '9' '9' '9' '9'],['4' '4' '4' '4' '4' '' '' '' '4']
7,9,1,2.447303887770431,"(False, False)",1,['4' '4' '4' '4' '4' '' '' '' '4'],['6' '' '6' '6' '' '6' '' '' '6']
7,10,3,3.5316235662562576,"(False, False)",3,['6' '' '6' '6' '' '6' '' '' '6'],['8' '8' '8' '8' '8' '8' '8' '8' '']
7,11,4,1.1328352194550462,"(True, True)",4,['8' '8' '8' '8' '8' '8' '8' '8' ''],['' '6' '6' '' '' '' '' '' '']
7,12,6,2.8808173296438326,"(False, True)",6,['' '6' '6' '' '' '' '' '' ''],['' '' '' '4' '' '' '' '' '']
7,13,6,0.8767639298748691,"(True, True)",6,['' '' '' '4' '' '' '' '' ''],['' '' '' '' '' '' '2' '2' '2']
8,1,7,1.0511133634254293,"(True, True)",7,['' '' '' '9' '' '' '' '9' '9'],['8' '' '8' '8' '8' '' '8' '8' '']
8,2,2,1.073908470234528,"(True, True)",2,['8' '' '8' '8' '8' '' '8' '8' ''],['4' '' '4' '' '4' '' '4' '4' '4']
8,3,0,0.9752563348256444,"(True, True)",0,['4' '' '4' '' '4' '' '4' '4' '4'],['' '' '' '' '6' '' '' '6' '']
8,4,0,1.2981014675283404,"(False, False)",0,['' '' '' '' '6' '' '' '6' ''],['9' '9' '9' '' '9' '9' '9' '9' '9']
8,5,1,2.565154704885572,"(False, True)",1,['9' '9' '9' '' '9' '9' '9' '9' '9'],['' '3' '3' '3' '3' '3' '3' '3' '3']
8,6,9,3.2759851194036855,"(False, True)",9,['' '3' '3' '3' '3' '3' '3' '3' '3'],['1' '1' '1' '1' '1' '1' '1' '1' '1']
8,7,9,2.5907678859807675,"(True, False)",9,['1' '1' '1' '1' '1' '1' '1' '1' '1'],['1' '1' '1' '1' '' '1' '1' '1' '1']
8,8,9,3.5903721987797326,"(True, False)",9,['1' '1' '1' '1' '' '1' '1' '1' '1'],['4' '4' '4' '4' '' '4' '4' '4' '4']
8,9,6,2.2200392392996946,"(False, True)",6,['4' '4' '4' '4' '' '4' '4' '4' '4'],['8' '' '' '' '8' '' '' '' '8']
8,10,1,7.706057653118933,"(False, True)",1,['8' '' '' '' '8' '' '' '' '8'],['8' '' '8' '' '' '' '8' '8' '']
8,11,9,1.9023445520037967,"(False, True)",9,['8' '' '8' '' '' '' '8' '8' ''],['5' '5' '5' '5' '5' '' '' '5' '5']
8,12,7,1.064554470767689,"(True, True)",7,['5' '5' '5' '5' '5' '' '' '5' '5'],['' '' '' '' '' '' '' '2' '']
8,13,6,0.9835692134670353,"(True, True)",6,['' '' '' '' '' '' '' '2' ''],['4' '4' '4' '4' '4' '4' '4' '4' '']
9,1,7,2.281520526704753,"(True, False)",7,['4' '4' '4' '4' '' '' '4' '4' '4'],['3' '3' '' '' '' '' '' '3' '']
9,2,6,1.70150820792378,"(False, False)",6,['3' '3' '' '' '' '' '' '3' ''],['' '4' '' '' '' '4' '' '4' '']
9,3,3,3.024798823893434,"(True, True)",3,['' '4' '' '' '' '4' '' '4' ''],['9' '' '' '9' '' '' '' '' '']
9,4,5,0.7890477766441109,"(True, True)",5,['9' '' '' '9' '' '' '' '' ''],['6' '6' '6' '' '' '6' '6' '' '6']
9,5,2,4.823363394835269,"(False, True)",2,['6' '6' '6' '' '' '6' '6' '' '6'],['6' '6' '6' '6' '6' '6' '6' '' '']
9,6,2,5.171051784844167,"(True, False)",2,['6' '6' '6' '6' '6' '6' '6' '' ''],['1' '' '' '1' '1' '1' '1' '1' '']
9,7,8,2.382162589517975,"(True, True)",8,['1' '' '' '1' '1' '1' '1' '1' ''],['7' '7' '7' '7' '7' '7' '7' '7' '7']
9,8,2,1.9007219663471915,"(False, False)",2,['7' '7' '7' '7' '7' '7' '7' '7' '7'],['' '9' '' '' '9' '9' '' '' '']
9,9,7,2.5677747440481653,"(False, False)",7,['' '9' '' '' '9' '9' '' '' ''],['' '' '9' '9' '' '9' '9' '' '']
9,10,8,3.382797680882504,"(False, True)",8,['' '' '9' '9' '' '9' '9' '' ''],['' '4' '4' '' '' '4' '4' '4' '4']
9,11,9,1.3166256040649387,"(True, True)",9,['' '4' '4' '' '' '4' '4' '4' '4'],['5' '5' '5' '5' '5' '5' '5' '5' '5']
9,12,2,2.158757902252546,"(False, False)",2,['5' '5' '5' '5' '5' '5' '5' '5' '5'],['6' '' '' '' '6' '' '' '6' '']
10,1,3,4.504402355277307,"(True, False)",3,['5' '' '5' '5' '5' '' '5' '5' ''],['7' '7' '7' '7' '7' '7' '' '7' '7']
10,2,0,3.3050840251153204,"(True, False)",0,['7' '7' '7' '7' '7' '7' '' '7' '7'],['' '' '' '' '8' '8' '8' '' '']
10,3,9,2.594458923608272,"(True, False)",9,['' '' '' '' '8' '8' '8' '' ''],['' '' '' '' '' '4' '' '' '']
10,4,0,2.8813593406694054,"(False, True)",0,['' '' '' '' '' '4' '' '' ''],['9' '9' '9' '9' '9' '' '9' '9' '9']
10,5,4,1.2521538713758673,"(True, True)",4,['9' '9' '9' '9' '9' '' '9' '9' '9'],['5' '' '' '' '5' '5' '5' '5' '']
10,6,3,2.000951870953031,"(True, False)",3,['5' '' '' '' '5' '5' '5' '5' ''],['' '8' '8' '8' '8' '8' '8' '8' '8']
10,7,4,3.1033164946020406,"(False, True)",4,['' '8' '8' '8' '8' '8' '8' '8' '8'],['6' '6' '6' '6' '' '6' '' '6' '6']
10,8,8,3.033455295390013,"(True, False)",8,['6' '6' '6' '6' '' '6' '' '6' '6'],['' '' '5' '' '' '5' '' '' '']
10,9,8,1.3572097808664694,"(False, True)",8,['' '' '5' '' '' '5' '' '' ''],['6' '6' '6' '6' '6' '6' '6' '6' '6']
10,10,5,1.7742020371952094,"(False, False)",5,['6' '6' '6' '6' '6' '6' '6' '6' '6'],['2' '2' '' '2' '2' '2' '' '' '2']
10,11,8,2.21466739292282,"(True, False)",8,['2' '2' '' '2' '2' '2' '' '' '2'],['' '2' '2' '2' '2' '2' '' '' '2']
10,12,4,0.8213554642370582,"(True, True)",4,['' '2' '2' '2' '2' '2' '' '' '2'],['' '' '' '' '' '2' '2' '2' '2']
